Folder: Misc-fsharp/ql_interview/MLNet-ConcreteV2/data

Note: ql_interview/README.md
# QUICKEN LOANS INTERVIEW PREP

This code resides in the "ql_interview" folder of the following repo in my
public GitHub:
<https://github.com/mdhatmaker/Misc-fsharp>

## Introduction

This folder contains some sample code that demonstrates using Microsoft's ML.NET machine learning framework. The samples are intended to demonstrate the basic ability to work with this machine learning framework and to provide a potential locus for the interview conversation.

## Description

The majority of my work experience has been at trading firms (high-frequency and otherwise), and my positions most often required me to learn and implement a variety of technologies using several programming languages.

This type of work has taught me to deal with high-pressure environments and high-pressure deadlines. Also, I have often had to be self-sustaining in terms of creating project goals and achieving those goals. That said, I very much enjoy working with a team, especially when those team members are talented (and especially when the technologies involved are F# and ML.NET).

Additionally, I am familiar with a wide variety of financial markets, and I would be able to work with data on Bonds, FX, Futures and Options (just guessing as to what might be relevant to QuickenLoans business domain).

In the few days I had to explore the current state of F# and ML.NET, I was able to try out the Model Builder (very cool) and try out some other ML.NET examples in F# (also very cool, but often with caveats related to updates to the ML.NET framework). For purposes of Model Builder, I included some C# sample code, but I have been focused on reorienting myself with F#, a language which I have been impressed with since its earliest beta releases.

## Conclusion

To reiterate, these sample projects are only intended to demonstrate a basic aptitude with the ML.NET framework. I spent a few days getting reacquainted with F# and exploring the advances Microsoft has made with their ML.NET framework. If this position at QuickenLoans seems like a good fit, I am confident I will be back to full-speed in these technologies in a matter of weeks.

For a further look at my .NET ability, check out the Cryptocurrency Trading and Research system I built in C#:
<https://github.com/mdhatmaker/PrimeTrader>

For a further look at my ML and math/stat work in Python, check out the "Machine-Learning" and "Time-Series-MathStat" folders here:
<https://github.com/mdhatmaker/Misc-python>


## Other Resources

My website : <https://www.mdhatmaker.com>
My GitHub  : <https://github.com/mdhatmaker>
My LinkedIn: <https://www.linkedin.com/in/michael-hatmaker>

File: Concrete_Data.csv
"Cement (component 1)(kg in a m^3 mixture)","Blast Furnace Slag (component 2)(kg in a m^3 mixture)","Fly Ash (component 3)(kg in a m^3 mixture)","Water  (component 4)(kg in a m^3 mixture)","Superplasticizer (component 5)(kg in a m^3 mixture)","Coarse Aggregate  (component 6)(kg in a m^3 mixture)","Fine Aggregate (component 7)(kg in a m^3 mixture)","Age (day)","Concrete compressive strength(MPa, megapascals) "
540,0,0,162,2.5,1040,676,28,79.9861
266,114,0,228,0,932,670,90,47.0298
198.6,132.4,0,192,0,978.4,825.5,90,38.0742
380,0,0,228,0,932,670,90,52.9083
427.5,47.5,0,228,0,932,594,180,41.8367
380,0,0,228,0,932,670,270,53.3006
304,76,0,228,0,932,670,365,55.2601
237.5,237.5,0,228,0,932,594,270,38.408
342,38,0,228,0,932,670,90,50.4593
427.5,47.5,0,228,0,932,594,7,35.0764
332.5,142.5,0,228,0,932,594,180,39.7793
198.6,132.4,0,192,0,978.4,825.5,7,14.6383
304,76,0,228,0,932,670,270,54.3783
342,38,0,228,0,932,670,270,55.0643
374,189.2,0,170.1,10.1,926.1,756.7,3,34.398
475,118.8,0,181.1,8.9,852.1,781.5,3,37.7971
425,106.3,0,153.5,16.5,852.1,887.1,3,33.3982
379.5,151.2,0,153.9,15.9,1134.3,605,3,28.5995
389.9,189,0,145.9,22,944.7,755.8,3,40.5963
425,106.3,0,153.5,16.5,852.1,887.1,7,49.201
425,106.3,0,153.5,16.5,852.1,887.1,7,49.201
401.8,94.7,0,147.4,11.4,946.8,852.1,7,54.0963
286.3,200.9,0,144.7,11.2,1004.6,803.7,7,37.997
337.9,189,0,174.9,9.5,944.7,755.8,7,35.1012
375,93.8,0,126.6,23.4,852.1,992.6,28,56.6956
531.3,0,0,141.8,28.2,852.1,893.7,28,56.3991
323.7,282.8,0,183.8,10.3,942.7,659.9,28,74.6978
439,177,0,186,11.1,884.9,707.9,28,65.9966
313.3,262.2,0,175.5,8.6,1046.9,611.8,56,64.9004
469,117.2,0,137.8,32.2,852.1,840.5,56,69.2992
318.8,212.5,0,155.7,14.3,852.1,880.4,56,66.1001
362.6,189,0,164.9,11.6,944.7,755.8,56,77.2972
362.6,189,0,164.9,11.6,944.7,755.8,56,77.2972
425,106.3,0,151.4,18.6,936,803.7,91,66.6999
388.6,97.1,0,157.9,12.1,852.1,925.7,91,57.5988
362.6,189,0,164.9,11.6,944.7,755.8,91,79.2966
439,177,0,186,11.1,884.9,707.9,91,73.2982
222.36,0,96.67,189.29,4.46,967.08,870.32,14,24.4488
233.81,0,94.58,197.89,4.567,947.04,852.16,14,22.1391
194.68,0,100.52,165.62,7.48,1006.4,905.9,14,24.9866
190.68,0,125.4,162.14,7.77,1090,804.01,14,21.0635
212.07,0,121.62,180.31,5.69,1057.6,779.32,14,20.9187
229.97,0,118.31,195.47,4.63,1029.4,758.59,14,20.0844
190.34,0,125.18,161.85,9.88,1088.1,802.59,14,22.7182
166.09,0,163.27,176.46,4.49,1058.6,780.09,14,25.483
167.95,42.08,163.83,121.75,5.72,1058.7,780.11,14,17.823
213.72,98.05,24.51,181.71,6.86,1065.8,785.38,14,30.3852
213.76,98.06,24.52,181.74,6.65,1066,785.52,14,17.8367
229.68,0,118.16,195.23,6.13,1028.1,757.63,14,22.3183
238.05,0,94.11,186.66,7,949.91,847.01,14,25.6899
250,0,95.69,187.42,5.53,956.86,861.17,14,24.9177
212.52,0,100.37,159.32,8.71,1007.8,903.59,14,26.3104
212.57,0,100.39,159.35,10.37,1003.8,903.79,14,25.3727
212,0,124.78,159,7.84,1085.4,799.54,14,31.3505
231.75,0,121.62,173.96,6.72,1056.4,778.45,14,26.7724
251.37,0,118.27,188.45,5.75,1028.4,757.73,14,29.9302
251.37,0,118.27,188.45,6.35,1028.4,757.73,14,24.4281
181.38,0,167.01,169.59,7.56,1055.6,777.8,14,21.6013
182.04,45.21,121.97,170.21,8.19,1059.4,780.65,14,21.5048
168.88,42.22,124.25,158.33,10.83,1080.8,796.15,14,23.5111
290.35,0,96.18,168.08,9.41,961.18,865,14,34.6737
277.05,0,97.39,160.6,11.83,973.9,875.61,14,41.8857
295.71,0,95.64,171.54,8.87,955.14,859.2,14,35.2322
251.81,0,99.94,146.14,12.35,1006,899.76,14,33.3568
249.1,0,98.75,158.11,12.8,987.76,889.01,14,28.6822
252.31,0,98.75,146.25,14.17,987.76,889.01,14,42.2925
246.83,0,125.08,143.3,11.99,1086.8,800.89,14,42.2166
275.07,0,121.35,159.48,9.9,1053.6,777.5,14,38.7692
297.16,0,117.54,174.8,9.52,1022.8,753.45,14,36.9904
213.74,0,174.74,154.79,10.16,1053.5,776.35,14,33.7292
213.5,0,174.24,154.61,11.66,1052.3,775.48,14,33.7016
277.19,97.82,24.46,160.7,11.19,1061.7,782.46,14,47.7117
218.23,54.64,123.78,140.75,11.91,1075.7,792.67,14,35.9562
214.9,53.8,121.89,155.63,9.61,1014.3,780.58,14,38.6038
218.85,0,124.13,158.49,11.33,1078.7,794.91,14,26.0484
376,0,0,214.6,0,1003.5,762.36,14,25.6209
475,0,59,142,1.9,1098,641,28,57.2265
520,0,0,170,5.2,855,855,28,60.2809
450.1,50,0,200,3,1124.4,613.2,28,39.376
200,200,0,190,0,1145,660,28,49.2493
250,180,95,159,9.45,860,800,28,67.8651
500,0,0,151,9,1033,655,28,69.837
172.38,13.61,172.37,156.76,4.14,1006.3,856.4,3,21.291
250,0,95.69,191.84,5.33,948.9,857.2,3,8.48745
165,128.5,132.1,175.06,8.08,1005.8,746.6,14,33.088
167,75.4,167,164.03,7.91,1007.3,770.1,14,32.9018
194.68,0,100.52,170.17,7.48,998,901.8,14,24.2833
167.35,129.9,128.62,175.46,7.79,1006.3,746.6,28,41.2031
190.34,0,125.18,166.61,9.88,1079,798.9,28,24.8487
165,0.02,143.57,163.81,0,1005.6,900.9,56,36.5629
173.54,50.05,173.53,164.77,6.47,1006.2,793.5,56,53.7722
213.5,0,174.24,159.21,11.66,1043.6,771.9,56,51.2556
178.03,129.8,118.6,179.94,3.57,1007.3,746.8,100,49.9939
173.81,93.37,159.9,172.34,9.73,1007.2,746.6,100,50.9385
251.37,0,118.27,192.94,5.75,1043.6,754.3,100,40.1482
446,24,79,162,11.61,967,712,3,35.3632
446,24,79,162,11.64,967,712,7,39.3001
387,20,94,157,14.32,938,845,28,50.2352
387,20,94,157,11.61,938,845,3,34.7703
387,20,94,157,13.93,938,845,56,47.9668
491,26,123,201,3.93,822,699,28,57.916
491,26,123,201,3.93,822,699,7,37.92118
424,22,132,178,8.48,822,750,7,39.0046
202,11,141,206,1.72,942,801,28,21.9667
284,15,141,179,5.46,842,801,3,13.3955
359,19,141,154,10.91,942,801,3,25.1166
359,19,141,154,10.91,942,801,56,66.7807
393,0,0,192,0,940.6,785.6,90,48.8466
480,0,0,192,0,936.2,712.2,3,24.4047
255,0,0,192,0,889.8,945,28,18.7462
393,0,0,192,0,940.6,785.6,7,27.7424
181.9,272.8,0,185.7,0,1012.4,714.3,28,27.9355
220.8,147.2,0,185.7,0,1055,744.3,28,25.745
295.8,0,0,185.7,0,1091.4,769.3,7,14.8437
295.8,0,0,185.7,0,1091.4,769.3,28,25.2169
238.1,0,0,185.7,0,1118.8,789.3,28,17.5761
290.2,193.5,0,185.7,0,998.2,704.3,7,21.8591
290.2,193.5,0,185.7,0,998.2,704.3,28,33.0431
238.1,0,0,185.7,0,1118.8,789.3,7,10.3359
186.2,124.1,0,185.7,0,1083.4,764.3,28,17.5968
339,0,0,197,0,968,781,14,27.0412
236,0,0,194,0,968,885,3,6.46728
236,0,0,193,0,968,885,365,25.0831
277,0,0,191,0,968,856,180,32.3295
254,0,0,198,0,968,863,365,29.7854
307,0,0,193,0,968,812,90,32.9225
225,0,0,181,0,1113,833,28,17.3403
300,0,0,184,0,1075,795,7,15.5753
400,0,0,187,0,1025,745,7,30.1439
203.5,305.3,0,203.5,0,963.4,630,7,19.5391
122.6,183.9,0,203.5,0,958.2,800.1,90,33.1921
166.8,250.2,0,203.5,0,975.6,692.6,28,33.9477
116,173,0,192,0,909.8,891.9,90,31.0237
173,116,0,192,0,946.8,856.8,7,11.3922
305.3,203.5,0,203.5,0,965.4,631,28,43.377
183.9,122.6,0,203.5,0,959.2,800,90,32.5329
102,153,0,192,0,887,942,28,17.2755
133,200,0,192,0,927.4,839.2,7,13.664
288,192,0,192,0,932,717.8,7,23.5235
116,173,0,192,0,909.8,891.9,28,22.348
133,200,0,192,0,927.4,839.2,3,6.88373
122.6,183.9,0,203.5,0,958.2,800.1,3,3.31983
250.2,166.8,0,203.5,0,977.6,694.1,28,36.9642
141.3,212,0,203.5,0,971.8,748.5,90,39.6621
203.5,305.3,0,203.5,0,963.4,630,90,51.8638
310,0,0,192,0,1012,830,120,38.7003
331,0,0,192,0,1025,821,120,39.3829
349,0,0,192,0,1056,809,120,40.8583
297,0,0,186,0,1040,734,7,30.9575
281,0,0,185,0,1104,774,28,22.4355
500,0,0,200,0,1125,613,28,44.092
540,0,0,173,0,1125,613,180,71.6228
350,0,0,203,0,974,775,56,29.9784
385,0,0,186,0,966,763,7,23.2216
349,0,0,192,0,1047,806,3,14.9892
281,0,0,186,0,1104,774,28,22.4355
238,0,0,185,0,1118,789,28,17.5403
331,0,0,192,0,978,825,7,16.2647
349,0,0,192,0,1047,806,90,39.4863
525,0,0,189,0,1125,613,180,61.9218
252,0,0,185,0,1111,784,7,13.7137
393,0,0,192,0,940,758,90,48.7942
310,0,0,192,0,970,850,7,14.9892
525,0,0,189,0,1125,613,3,33.7981
525,0,0,189,0,1125,613,270,67.1136
397,0,0,185,0,1040,734,28,39.0933
162,190,148,179,19,838,741,28,33.7567
144,0,175,158,18,943,844,28,15.4167
310,143,0,168,10,914,804,28,45.2986
321,164,0,190,5,870,774,28,57.2127
156,243,0,180,11,1022,698,28,37.3627
326,166,0,174,9,882,790,28,61.2324
314,0,113,170,10,925,783,28,38.459
265,111,86,195,6,833,790,28,41.5409
149,139,109,193,6,892,780,28,23.6904
155,183,0,193,9,1047,697,28,18.2849
152,0,112,184,8,992,816,28,12.1761
153,145,113,178,8,867,824,28,26.2277
158,0,195,220,11,898,713,28,8.53571
260,101,78,171,10,936,763,28,49.7733
150,237,0,174,12,1069,675,28,37.4317
135,0,166,180,10,961,805,28,13.2931
144,136,106,178,7,941,774,28,26.1449
155,184,143,194,9,880,699,28,28.9856
136,162,126,172,10,923,764,28,29.0683
164,163,128,197,8,961,641,28,27.2343
159,209,161,201,7,848,669,28,30.8816
156,178,187,221,7,854,614,28,29.413
296,0,106.7,221.4,10.5,819.2,778.4,28,31.4201
139.9,132.6,103.3,200.3,7.4,916,753.4,28,36.4436
326.5,0,137.9,199,10.8,801.1,792.5,28,38.6307
272.6,0,89.6,198.7,10.6,931.3,762.2,28,32.2454
284,119.7,0,168.3,7.2,970.4,794.2,28,40.9349
330.5,169.6,0,194.9,8.1,811,802.3,28,56.6191
314,145.3,113.2,178.9,8,869.1,690.2,28,46.2342
277,116.8,91,190.6,7,946.5,665.6,28,43.5783
147.8,175.1,0,171.2,2.2,1000,828.5,28,26.9227
255.3,98.8,77,188.6,6.5,919,749.3,28,33.7988
151.8,178.1,138.7,167.5,18.3,944,694.6,28,36.3499
158.6,148.9,116,175.1,15,953.3,719.7,28,27.6811
141.9,166.6,129.7,173.5,10.9,882.6,785.3,28,44.6119
252.1,97.1,75.6,193.8,8.3,835.5,821.4,28,33.3996
317.9,0,126.5,209.7,5.7,860.5,736.6,28,40.062
322.5,148.6,0,185.8,8.5,951,709.5,28,52.4264
288.4,121,0,177.4,7,907.9,829.5,28,42.1401
276.4,116,90.3,179.6,8.9,870.1,768.3,28,44.2844
260.9,100.5,78.3,200.6,8.6,864.5,761.5,28,32.4012